{
  "resourceType": "Bundle",
  "id": "bundle-patient-summary",
  "meta": {
    "lastUpdated": "2024-01-15T15:00:00-05:00"
  },
  "identifier": {
    "system": "http://hospital.example.org/bundles",
    "value": "BUNDLE-2024-00123"
  },
  "type": "collection",
  "timestamp": "2024-01-15T15:00:00-05:00",
  "entry": [
    {
      "fullUrl": "http://hospital.example.org/fhir/Patient/patient-diabetic",
      "resource": {
        "resourceType": "Patient",
        "id": "patient-diabetic",
        "meta": {
          "profile": ["http://hl7.org/fhir/us/core/StructureDefinition/us-core-patient"]
        },
        "extension": [
          {
            "url": "http://hl7.org/fhir/us/core/StructureDefinition/us-core-race",
            "extension": [
              {
                "url": "ombCategory",
                "valueCoding": {
                  "system": "urn:oid:2.16.840.1.113883.6.238",
                  "code": "2106-3",
                  "display": "White"
                }
              },
              {
                "url": "text",
                "valueString": "White"
              }
            ]
          },
          {
            "url": "http://hl7.org/fhir/us/core/StructureDefinition/us-core-ethnicity",
            "extension": [
              {
                "url": "ombCategory",
                "valueCoding": {
                  "system": "urn:oid:2.16.840.1.113883.6.238",
                  "code": "2186-5",
                  "display": "Not Hispanic or Latino"
                }
              },
              {
                "url": "text",
                "valueString": "Not Hispanic or Latino"
              }
            ]
          },
          {
            "url": "http://hl7.org/fhir/us/core/StructureDefinition/us-core-birthsex",
            "valueCode": "M"
          }
        ],
        "identifier": [{
          "system": "http://hospital.example.org/patients",
          "value": "PAT-001"
        }],
        "active": true,
        "name": [{
          "use": "official",
          "family": "Smith",
          "given": ["John", "Robert"]
        }],
        "gender": "male",
        "birthDate": "1965-04-15",
        "address": [{
          "use": "home",
          "line": ["456 Oak Street"],
          "city": "Springfield",
          "state": "IL",
          "postalCode": "62702"
        }],
        "telecom": [{
          "system": "phone",
          "value": "555-867-5309",
          "use": "home"
        }]
      }
    },
    {
      "fullUrl": "http://hospital.example.org/fhir/Condition/condition-diabetes",
      "resource": {
        "resourceType": "Condition",
        "id": "condition-diabetes",
        "clinicalStatus": {
          "coding": [{
            "system": "http://terminology.hl7.org/CodeSystem/condition-clinical",
            "code": "active",
            "display": "Active"
          }]
        },
        "verificationStatus": {
          "coding": [{
            "system": "http://terminology.hl7.org/CodeSystem/condition-ver-status",
            "code": "confirmed",
            "display": "Confirmed"
          }]
        },
        "category": [{
          "coding": [{
            "system": "http://terminology.hl7.org/CodeSystem/condition-category",
            "code": "encounter-diagnosis",
            "display": "Encounter Diagnosis"
          }]
        }],
        "code": {
          "coding": [{
            "system": "http://snomed.info/sct",
            "code": "44054006",
            "display": "Type 2 diabetes mellitus"
          }],
          "text": "Type 2 Diabetes Mellitus"
        },
        "subject": {
          "reference": "Patient/patient-diabetic",
          "display": "John Smith"
        },
        "onsetDateTime": "2020-03-15"
      }
    },
    {
      "fullUrl": "http://hospital.example.org/fhir/Condition/condition-hypertension",
      "resource": {
        "resourceType": "Condition",
        "id": "condition-hypertension",
        "clinicalStatus": {
          "coding": [{
            "system": "http://terminology.hl7.org/CodeSystem/condition-clinical",
            "code": "active",
            "display": "Active"
          }]
        },
        "verificationStatus": {
          "coding": [{
            "system": "http://terminology.hl7.org/CodeSystem/condition-ver-status",
            "code": "confirmed",
            "display": "Confirmed"
          }]
        },
        "code": {
          "coding": [{
            "system": "http://snomed.info/sct",
            "code": "38341003",
            "display": "Hypertensive disorder"
          }],
          "text": "Essential Hypertension"
        },
        "subject": {
          "reference": "Patient/patient-diabetic",
          "display": "John Smith"
        },
        "onsetDateTime": "2018-06-20"
      }
    },
    {
      "fullUrl": "http://hospital.example.org/fhir/Observation/observation-hba1c",
      "resource": {
        "resourceType": "Observation",
        "id": "observation-hba1c",
        "status": "final",
        "category": [{
          "coding": [{
            "system": "http://terminology.hl7.org/CodeSystem/observation-category",
            "code": "laboratory",
            "display": "Laboratory"
          }]
        }],
        "code": {
          "coding": [{
            "system": "http://loinc.org",
            "code": "4548-4",
            "display": "Hemoglobin A1c/Hemoglobin.total in Blood"
          }],
          "text": "HbA1c"
        },
        "subject": {
          "reference": "Patient/patient-diabetic",
          "display": "John Smith"
        },
        "effectiveDateTime": "2024-01-15T08:30:00-05:00",
        "valueQuantity": {
          "value": 7.2,
          "unit": "%",
          "system": "http://unitsofmeasure.org",
          "code": "%"
        },
        "interpretation": [{
          "coding": [{
            "system": "http://terminology.hl7.org/CodeSystem/v3-ObservationInterpretation",
            "code": "H",
            "display": "High"
          }]
        }],
        "referenceRange": [{
          "low": {
            "value": 4.0,
            "unit": "%"
          },
          "high": {
            "value": 5.6,
            "unit": "%"
          },
          "text": "Normal: 4.0-5.6%"
        }]
      }
    },
    {
      "fullUrl": "http://hospital.example.org/fhir/Observation/observation-glucose",
      "resource": {
        "resourceType": "Observation",
        "id": "observation-glucose",
        "status": "final",
        "category": [{
          "coding": [{
            "system": "http://terminology.hl7.org/CodeSystem/observation-category",
            "code": "laboratory",
            "display": "Laboratory"
          }]
        }],
        "code": {
          "coding": [{
            "system": "http://loinc.org",
            "code": "2339-0",
            "display": "Glucose [Mass/volume] in Blood"
          }],
          "text": "Blood Glucose"
        },
        "subject": {
          "reference": "Patient/patient-diabetic",
          "display": "John Smith"
        },
        "effectiveDateTime": "2024-01-15T08:30:00-05:00",
        "valueQuantity": {
          "value": 145,
          "unit": "mg/dL",
          "system": "http://unitsofmeasure.org",
          "code": "mg/dL"
        },
        "interpretation": [{
          "coding": [{
            "system": "http://terminology.hl7.org/CodeSystem/v3-ObservationInterpretation",
            "code": "H",
            "display": "High"
          }]
        }]
      }
    },
    {
      "fullUrl": "http://hospital.example.org/fhir/Observation/observation-bp",
      "resource": {
        "resourceType": "Observation",
        "id": "observation-bp",
        "status": "final",
        "category": [{
          "coding": [{
            "system": "http://terminology.hl7.org/CodeSystem/observation-category",
            "code": "vital-signs",
            "display": "Vital Signs"
          }]
        }],
        "code": {
          "coding": [{
            "system": "http://loinc.org",
            "code": "85354-9",
            "display": "Blood pressure panel"
          }],
          "text": "Blood Pressure"
        },
        "subject": {
          "reference": "Patient/patient-diabetic",
          "display": "John Smith"
        },
        "effectiveDateTime": "2024-01-15T09:00:00-05:00",
        "component": [
          {
            "code": {
              "coding": [{
                "system": "http://loinc.org",
                "code": "8480-6",
                "display": "Systolic blood pressure"
              }]
            },
            "valueQuantity": {
              "value": 138,
              "unit": "mmHg",
              "system": "http://unitsofmeasure.org",
              "code": "mm[Hg]"
            }
          },
          {
            "code": {
              "coding": [{
                "system": "http://loinc.org",
                "code": "8462-4",
                "display": "Diastolic blood pressure"
              }]
            },
            "valueQuantity": {
              "value": 85,
              "unit": "mmHg",
              "system": "http://unitsofmeasure.org",
              "code": "mm[Hg]"
            }
          }
        ]
      }
    },
    {
      "fullUrl": "http://hospital.example.org/fhir/MedicationRequest/medicationrequest-metformin",
      "resource": {
        "resourceType": "MedicationRequest",
        "id": "medicationrequest-metformin",
        "status": "active",
        "intent": "order",
        "medicationCodeableConcept": {
          "coding": [{
            "system": "http://www.nlm.nih.gov/research/umls/rxnorm",
            "code": "860974",
            "display": "Metformin hydrochloride 500 MG Oral Tablet"
          }],
          "text": "Metformin 500mg"
        },
        "subject": {
          "reference": "Patient/patient-diabetic",
          "display": "John Smith"
        },
        "authoredOn": "2024-01-15",
        "requester": {
          "reference": "Practitioner/practitioner-primary",
          "display": "Dr. Sarah Johnson"
        },
        "dosageInstruction": [{
          "text": "Take 1 tablet by mouth twice daily with meals",
          "timing": {
            "repeat": {
              "frequency": 2,
              "period": 1,
              "periodUnit": "d"
            }
          },
          "route": {
            "coding": [{
              "system": "http://snomed.info/sct",
              "code": "26643006",
              "display": "Oral route"
            }]
          },
          "doseAndRate": [{
            "doseQuantity": {
              "value": 500,
              "unit": "mg",
              "system": "http://unitsofmeasure.org",
              "code": "mg"
            }
          }]
        }]
      }
    },
    {
      "fullUrl": "http://hospital.example.org/fhir/MedicationRequest/medicationrequest-lisinopril",
      "resource": {
        "resourceType": "MedicationRequest",
        "id": "medicationrequest-lisinopril",
        "status": "active",
        "intent": "order",
        "medicationCodeableConcept": {
          "coding": [{
            "system": "http://www.nlm.nih.gov/research/umls/rxnorm",
            "code": "314076",
            "display": "Lisinopril 10 MG Oral Tablet"
          }],
          "text": "Lisinopril 10mg"
        },
        "subject": {
          "reference": "Patient/patient-diabetic",
          "display": "John Smith"
        },
        "authoredOn": "2024-01-15",
        "requester": {
          "reference": "Practitioner/practitioner-primary",
          "display": "Dr. Sarah Johnson"
        },
        "dosageInstruction": [{
          "text": "Take 1 tablet by mouth once daily",
          "timing": {
            "repeat": {
              "frequency": 1,
              "period": 1,
              "periodUnit": "d"
            }
          },
          "doseAndRate": [{
            "doseQuantity": {
              "value": 10,
              "unit": "mg",
              "system": "http://unitsofmeasure.org",
              "code": "mg"
            }
          }]
        }]
      }
    },
    {
      "fullUrl": "http://hospital.example.org/fhir/AllergyIntolerance/allergy-penicillin",
      "resource": {
        "resourceType": "AllergyIntolerance",
        "id": "allergy-penicillin",
        "clinicalStatus": {
          "coding": [{
            "system": "http://terminology.hl7.org/CodeSystem/allergyintolerance-clinical",
            "code": "active",
            "display": "Active"
          }]
        },
        "verificationStatus": {
          "coding": [{
            "system": "http://terminology.hl7.org/CodeSystem/allergyintolerance-verification",
            "code": "confirmed",
            "display": "Confirmed"
          }]
        },
        "type": "allergy",
        "category": ["medication"],
        "criticality": "high",
        "code": {
          "coding": [{
            "system": "http://www.nlm.nih.gov/research/umls/rxnorm",
            "code": "7980",
            "display": "Penicillin"
          }],
          "text": "Penicillin"
        },
        "patient": {
          "reference": "Patient/patient-diabetic",
          "display": "John Smith"
        },
        "reaction": [{
          "manifestation": [{
            "coding": [{
              "system": "http://snomed.info/sct",
              "code": "271807003",
              "display": "Skin rash"
            }]
          }],
          "severity": "moderate"
        }]
      }
    },
    {
      "fullUrl": "http://hospital.example.org/fhir/Encounter/encounter-outpatient",
      "resource": {
        "resourceType": "Encounter",
        "id": "encounter-outpatient",
        "status": "finished",
        "class": {
          "system": "http://terminology.hl7.org/CodeSystem/v3-ActCode",
          "code": "AMB",
          "display": "ambulatory"
        },
        "type": [{
          "coding": [{
            "system": "http://snomed.info/sct",
            "code": "185349003",
            "display": "Encounter for check up"
          }],
          "text": "Office Visit"
        }],
        "subject": {
          "reference": "Patient/patient-diabetic",
          "display": "John Smith"
        },
        "participant": [{
          "individual": {
            "reference": "Practitioner/practitioner-primary",
            "display": "Dr. Sarah Johnson"
          }
        }],
        "period": {
          "start": "2024-01-15T09:00:00-05:00",
          "end": "2024-01-15T09:45:00-05:00"
        },
        "reasonCode": [{
          "coding": [{
            "system": "http://snomed.info/sct",
            "code": "73211009",
            "display": "Diabetes mellitus"
          }],
          "text": "Diabetes follow-up"
        }]
      }
    },
    {
      "fullUrl": "http://hospital.example.org/fhir/Practitioner/practitioner-primary",
      "resource": {
        "resourceType": "Practitioner",
        "id": "practitioner-primary",
        "identifier": [{
          "system": "http://hl7.org/fhir/sid/us-npi",
          "value": "1234567890"
        }],
        "active": true,
        "name": [{
          "family": "Johnson",
          "given": ["Sarah"],
          "prefix": ["Dr."]
        }],
        "qualification": [{
          "code": {
            "coding": [{
              "system": "http://terminology.hl7.org/CodeSystem/v2-0360",
              "code": "MD",
              "display": "Doctor of Medicine"
            }]
          }
        }]
      }
    },
    {
      "fullUrl": "http://hospital.example.org/fhir/Organization/organization-hospital",
      "resource": {
        "resourceType": "Organization",
        "id": "organization-hospital",
        "identifier": [{
          "system": "http://hl7.org/fhir/sid/us-npi",
          "value": "1234567893"
        }],
        "active": true,
        "type": [{
          "coding": [{
            "system": "http://terminology.hl7.org/CodeSystem/organization-type",
            "code": "prov",
            "display": "Healthcare Provider"
          }]
        }],
        "name": "Springfield General Hospital",
        "telecom": [{
          "system": "phone",
          "value": "555-555-1000"
        }],
        "address": [{
          "line": ["100 Hospital Boulevard"],
          "city": "Springfield",
          "state": "IL",
          "postalCode": "62701"
        }]
      }
    }
  ]
}
